Folder: TexPre

Note: README.md
# TexPre
UXD File Pre-Treatment for MTEX and VPSC

File: 62522001-to1-t_R.uxd
; (content of file E:\past\WYW\20230719ZHUANWENJIANGESHI\62522001-to1-t_R.raw)
_FILEVERSION = 2
_SAMPLE =
_+SAMPLE =
_SITE = China
_USER = Administrator
_GONIOMETER_CODE = 21
; Goniometer : D8 theta/theta, stage : Unknown
_SAMPLE_CHANGER_CODE = 0
_ATTACHMENTS_CODE = 0
_GONIOMETER_RADIUS = 250
_FIXED_DIVSLIT = 0.6
_FIXED_SAMPLESLIT = 0
_FIXED_DETSLIT = 24.08
_MONOCHROMATOR = 0
; Incident beam monochromator : None
_THIN_FILM = N
_BETA_FILTER = N
_FIXED_ANTISLIT = 15.17
_ANALYZER_CODE = 1
; Received beam analyzer : Graphite
_DATEMEASURED = "23-May-2023 16:31:50"
_WL_UNIT = A
_WL1 = 1.5406
_WL2 = 1.54439
_WL3 = 1.39222
_WLRATIO = 0.5
_ANODE = Cu

; Data for range 1
_DRIVE = PHI
_STEPTIME = 0.5
_STEPSIZE = 5
_STEPMODE = C
_START = 0
_THETA = 16.0115
_2THETA = 32.023
_KHI = 0
_PHI = 0
_X = 0
_Y = 0
_Z = 0
_DIVERGENCE = 0.2
_ANTISCATTER = 0.2
_DETECTOR = 1
; Detector type : Scintillation counter
_HV = 670
_GAIN = 80
_LLD = 0.69
_ULD = 1.768
_DETECTORSLIT = out
_AUX1 = 0
_AUX2 = 0
_AUX3 = 0
_TIMESTARTED = 10
_TEMP_RATE = 0
_TEMP_DELAY = 0
_KV = 40
_MA = 40
_RANGE_WL = 1.5406
_3DPLANE = 0
_V4_COUNTERS_MASK = 1
_V4_DRIVES_MASK = 0
_V4_ENCODERS_MASK = 0
_2THETACOUNTS = 1
; PHI  Cnt1_D1
   0.0000        203
   5.0000        183
  10.0000        193
  15.0000        211
  20.0000        208
  25.0000        213
  30.0000        209
  35.0000        197
  40.0000        175
  45.0000        177
  50.0000        201
  55.0000        175
  60.0000        180
  65.0000        187
  70.0000        185
  75.0000        167
  80.0000        177
  85.0000        164
  90.0000        178
  95.0000        183
 100.0000        182
 105.0000        172
 110.0000        194
 115.0000        196
 120.0000        168
 125.0000        210
 130.0000        225
 135.0000        135
 140.0000        167
 145.0000        179
 150.0000        176
 155.0000        152
 160.0000        161
 165.0000        188
 170.0000        191
 175.0000        189
 180.0000        187
 185.0000        189
 190.0000        216
 195.0000        183
 200.0000        160
 205.0000        198
 210.0000        211
 215.0000        193
 220.0000        208
 225.0000        204
 230.0000        222
 235.0000        180
 240.0000        219
 245.0000        220
 250.0000        229
 255.0000        226
 260.0000        192
 265.0000        224
 270.0000        251
 275.0000        230
 280.0000        215
 285.0000        212
 290.0000        205
 295.0000        252
 300.0000        209
 305.0000        211
 310.0000        197
 315.0000        199
 320.0000        198
 325.0000        218
 330.0000        220
 335.0000        188
 340.0000        213
 345.0000        215
 350.0000        206
 355.0000        186

; Data for range 2
_DRIVE = PHI
_STEPTIME = 0.5
_STEPSIZE = 5
_STEPMODE = C
_START = 0
_THETA = 16.0115
_2THETA = 32.023
_KHI = 5
_PHI = 0
_X = 0
_Y = 0
_Z = 0
_DIVERGENCE = 0.2
_ANTISCATTER = 0.2
_DETECTOR = 1
; Detector type : Scintillation counter
_HV = 670
_GAIN = 80
_LLD = 0.69
_ULD = 1.768
_DETECTORSLIT = out
_AUX1 = 0
_AUX2 = 0
_AUX3 = 0
_TIMESTARTED = 55
_TEMP_RATE = 0
_TEMP_DELAY = 0
_KV = 40
_MA = 40
_RANGE_WL = 1.5406
_3DPLANE = 0
_V4_COUNTERS_MASK = 1
_V4_DRIVES_MASK = 0
_V4_ENCODERS_MASK = 0
_2THETACOUNTS = 1
; PHI  Cnt1_D1
   0.0000        223
   5.0000        194
  10.0000        205
  15.0000        229
  20.0000        201
  25.0000        189
  30.0000        185
  35.0000        195
  40.0000        193
  45.0000        196
  50.0000        164
  55.0000        194
  60.0000        181
  65.0000        219
  70.0000        176
  75.0000        185
  80.0000        197
  85.0000        188
  90.0000        205
  95.0000        174
 100.0000        201
 105.0000        192
 110.0000        174
 115.0000        193
 120.0000        179
 125.0000        199
 130.0000        190
 135.0000        183
 140.0000        188
 145.0000        203
 150.0000        159
 155.0000        199
 160.0000        183
 165.0000        200
 170.0000        166
 175.0000        195
 180.0000        173
 185.0000        216
 190.0000        183
 195.0000        205
 200.0000        214
 205.0000        208
 210.0000        221
 215.0000        182
 220.0000        218
 225.0000        234
 230.0000        227
 235.0000        231
 240.0000        217
 245.0000        226
 250.0000        243
 255.0000        245
 260.0000        259
 265.0000        227
 270.0000        235
 275.0000        233
 280.0000        210
 285.0000        229
 290.0000        218
 295.0000        256
 300.0000        213
 305.0000        241
 310.0000        230
 315.0000        242
 320.0000        210
 325.0000        217
 330.0000        247
 335.0000        212
 340.0000        196
 345.0000        208
 350.0000        209
 355.0000        222

; Data for range 3
_DRIVE = PHI
_STEPTIME = 0.5
_STEPSIZE = 5
_STEPMODE = C
_START = 0
_THETA = 16.0115
_2THETA = 32.023
_KHI = 10
_PHI = 0
_X = 0
_Y = 0
_Z = 0
_DIVERGENCE = 0.2
_ANTISCATTER = 0.2
_DETECTOR = 1
; Detector type : Scintillation counter
_HV = 670
_GAIN = 80
_LLD = 0.69
_ULD = 1.768
_DETECTORSLIT = out
_AUX1 = 0
_AUX2 = 0
_AUX3 = 0
_TIMESTARTED = 100
_TEMP_RATE = 0
_TEMP_DELAY = 0
_KV = 40
_MA = 40
_RANGE_WL = 1.5406
_3DPLANE = 0
_V4_COUNTERS_MASK = 1
_V4_DRIVES_MASK = 0
_V4_ENCODERS_MASK = 0
_2THETACOUNTS = 1
; PHI  Cnt1_D1
   0.0000        198
   5.0000        200
  10.0000        192
  15.0000        184
  20.0000        217
  25.0000        189
  30.0000        191
  35.0000        190
  40.0000        205
  45.0000        208
  50.0000        211
  55.0000        208
  60.0000        237
  65.0000        198
  70.0000        199
  75.0000        186
  80.0000        198
  85.0000        207
  90.0000        228
  95.0000        193
 100.0000        263
 105.0000        208
 110.0000        243
 115.0000        205
 120.0000        187
 125.0000        203
 130.0000        191
 135.0000        210
 140.0000        180
 145.0000        160
 150.0000        191
 155.0000        174
 160.0000        205
 165.0000        202
 170.0000        199
 175.0000        165
 180.0000        195
 185.0000        185
 190.0000        181
 195.0000        226
 200.0000        178
 205.0000        225
 210.0000        239
 215.0000        212
 220.0000        229
 225.0000        260
 230.0000        216
 235.0000        239
 240.0000        235
 245.0000        242
 250.0000        251
 255.0000        250
 260.0000        275
 265.0000        293
 270.0000        289
 275.0000        277
 280.0000        282
 285.0000        246
 290.0000        265
 295.0000        275
 300.0000        257
 305.0000        270
 310.0000        234
 315.0000        267
 320.0000        246
 325.0000        235
 330.0000        226
 335.0000        248
 340.0000        225
 345.0000        234
 350.0000        198
 355.0000        187

; Data for range 4
_DRIVE = PHI
_STEPTIME = 0.5
_STEPSIZE = 5
_STEPMODE = C
_START = 0
_THETA = 16.0115
_2THETA = 32.023
_KHI = 15
_PHI = 0
_X = 0
_Y = 0
_Z = 0
_DIVERGENCE = 0.2
_ANTISCATTER = 0.2
_DETECTOR = 1
; Detector type : Scintillation counter
_HV = 670
_GAIN = 80
_LLD = 0.69
_ULD = 1.768
_DETECTORSLIT = out
_AUX1 = 0
_AUX2 = 0
_AUX3 = 0
_TIMESTARTED = 145
_TEMP_RATE = 0
_TEMP_DELAY = 0
_KV = 40
_MA = 40
_RANGE_WL = 1.5406
_3DPLANE = 0
_V4_COUNTERS_MASK = 1
_V4_DRIVES_MASK = 0
_V4_ENCODERS_MASK = 0
[...]
_DETECTORSLIT = out
_AUX1 = 0
_AUX2 = 0
_AUX3 = 0
_TIMESTARTED = 5037
_TEMP_RATE = 0
_TEMP_DELAY = 0
_KV = 40
_MA = 40
_RANGE_WL = 1.5406
_3DPLANE = 0
_V4_COUNTERS_MASK = 1
_V4_DRIVES_MASK = 0
_V4_ENCODERS_MASK = 0
_2THETACOUNTS = 1
; PHI  Cnt1_D1
   0.0000        692

; Data for range 220
_DRIVE = PHI
_STEPTIME = 5
_STEPSIZE = 5
_STEPMODE = S
_START = 0
_THETA = 29.145
_2THETA = 58.29
_KHI = 45
_PHI = 0
_X = 0
_Y = 0
_Z = 0
_DIVERGENCE = 0.2
_ANTISCATTER = 0.2
_DETECTOR = 1
; Detector type : Scintillation counter
_HV = 670
_GAIN = 80
_LLD = 0.69
_ULD = 1.768
_DETECTORSLIT = out
_AUX1 = 0
_AUX2 = 0
_AUX3 = 0
_TIMESTARTED = 5048
_TEMP_RATE = 0
_TEMP_DELAY = 0
_KV = 40
_MA = 40
_RANGE_WL = 1.5406
_3DPLANE = 0
_V4_COUNTERS_MASK = 1
_V4_DRIVES_MASK = 0
_V4_ENCODERS_MASK = 0
_2THETACOUNTS = 1
; PHI  Cnt1_D1
   0.0000        678

; Data for range 221
_DRIVE = PHI
_STEPTIME = 5
_STEPSIZE = 5
_STEPMODE = S
_START = 0
_THETA = 29.145
_2THETA = 58.29
_KHI = 50
_PHI = 0
_X = 0
_Y = 0
_Z = 0
_DIVERGENCE = 0.2
_ANTISCATTER = 0.2
_DETECTOR = 1
; Detector type : Scintillation counter
_HV = 670
_GAIN = 80
_LLD = 0.69
_ULD = 1.768
_DETECTORSLIT = out
_AUX1 = 0
_AUX2 = 0
_AUX3 = 0
_TIMESTARTED = 5058
_TEMP_RATE = 0
_TEMP_DELAY = 0
_KV = 40
_MA = 40
_RANGE_WL = 1.5406
_3DPLANE = 0
_V4_COUNTERS_MASK = 1
_V4_DRIVES_MASK = 0
_V4_ENCODERS_MASK = 0
_2THETACOUNTS = 1
; PHI  Cnt1_D1
   0.0000        681

; Data for range 222
_DRIVE = PHI
_STEPTIME = 5
_STEPSIZE = 5
_STEPMODE = S
_START = 0
_THETA = 29.145
_2THETA = 58.29
_KHI = 55
_PHI = 0
_X = 0
_Y = 0
_Z = 0
_DIVERGENCE = 0.2
_ANTISCATTER = 0.2
_DETECTOR = 1
; Detector type : Scintillation counter
_HV = 670
_GAIN = 80
_LLD = 0.69
_ULD = 1.768
_DETECTORSLIT = out
_AUX1 = 0
_AUX2 = 0
_AUX3 = 0
_TIMESTARTED = 5067
_TEMP_RATE = 0
_TEMP_DELAY = 0
_KV = 40
_MA = 40
_RANGE_WL = 1.5406
_3DPLANE = 0
_V4_COUNTERS_MASK = 1
_V4_DRIVES_MASK = 0
_V4_ENCODERS_MASK = 0
_2THETACOUNTS = 1
; PHI  Cnt1_D1
   0.0000        662

; Data for range 223
_DRIVE = PHI
_STEPTIME = 5
_STEPSIZE = 5
_STEPMODE = S
_START = 0
_THETA = 29.145
_2THETA = 58.29
_KHI = 60
_PHI = 0
_X = 0
_Y = 0
_Z = 0
_DIVERGENCE = 0.2
_ANTISCATTER = 0.2
_DETECTOR = 1
; Detector type : Scintillation counter
_HV = 670
_GAIN = 80
_LLD = 0.69
_ULD = 1.768
_DETECTORSLIT = out
_AUX1 = 0
_AUX2 = 0
_AUX3 = 0
_TIMESTARTED = 5078
_TEMP_RATE = 0
_TEMP_DELAY = 0
_KV = 40
_MA = 40
_RANGE_WL = 1.5406
_3DPLANE = 0
_V4_COUNTERS_MASK = 1
_V4_DRIVES_MASK = 0
_V4_ENCODERS_MASK = 0
_2THETACOUNTS = 1
; PHI  Cnt1_D1
   0.0000        588

; Data for range 224
_DRIVE = PHI
_STEPTIME = 5
_STEPSIZE = 5
_STEPMODE = S
_START = 0
_THETA = 29.145
_2THETA = 58.29
_KHI = 65
_PHI = 0
_X = 0
_Y = 0
_Z = 0
_DIVERGENCE = 0.2
_ANTISCATTER = 0.2
_DETECTOR = 1
; Detector type : Scintillation counter
_HV = 670
_GAIN = 80
_LLD = 0.69
_ULD = 1.768
_DETECTORSLIT = out
_AUX1 = 0
_AUX2 = 0
_AUX3 = 0
_TIMESTARTED = 5088
_TEMP_RATE = 0
_TEMP_DELAY = 0
_KV = 40
_MA = 40
_RANGE_WL = 1.5406
_3DPLANE = 0
_V4_COUNTERS_MASK = 1
_V4_DRIVES_MASK = 0
_V4_ENCODERS_MASK = 0
_2THETACOUNTS = 1
; PHI  Cnt1_D1
   0.0000        542

; Data for range 225
_DRIVE = PHI
_STEPTIME = 5
_STEPSIZE = 5
_STEPMODE = S
_START = 0
_THETA = 29.145
_2THETA = 58.29
_KHI = 70
_PHI = 0
_X = 0
_Y = 0
_Z = 0
_DIVERGENCE = 0.2
_ANTISCATTER = 0.2
_DETECTOR = 1
; Detector type : Scintillation counter
_HV = 670
_GAIN = 80
_LLD = 0.69
_ULD = 1.768
_DETECTORSLIT = out
_AUX1 = 0
_AUX2 = 0
_AUX3 = 0
_TIMESTARTED = 5097
_TEMP_RATE = 0
_TEMP_DELAY = 0
_KV = 40
_MA = 40
_RANGE_WL = 1.5406
_3DPLANE = 0
_V4_COUNTERS_MASK = 1
_V4_DRIVES_MASK = 0
_V4_ENCODERS_MASK = 0
_2THETACOUNTS = 1
; PHI  Cnt1_D1
   0.0000        470

File: T12-RT-1.uxd
;content of C:\Users\USER\AppData\Local\Temp\92fetmp-1501843503.raw - (Diffrac Plus V4 file)
_FILEVERSION = 3
_SAMPLE
_+SAMPLE
_USER = Lab Manager
_GONIOMETER_CODE = 20
_STAGE_CODE = 4
; Goniometer : D8 theta/2theta, stage : Open eulerian craddle
_SAMPLE_CHANGER_CODE = 0
_ATTACHMENTS_CODE = 0
_GONIOMETER_RADIUS = 370
_MONOCHROMATOR = 0
; Incident beam monochromator : None
_BETA_FILTER = N
_FIXED_ANTISLIT = 18
_ANALYZER_CODE = 0
; Received beam analyzer : None
_DATEMEASURED = 10-Oct-2024 09:13:58
_RUNTIME = 19492.83
_WL_UNIT = A
_WL1 = 2.2897
_WL2 = 2.29361
_WL3 = 2.08487
_WLRATIO = 0.5
_ANODE = Cr
_V4_INF_USER = Lab Manager
_V4_INF_CREATOR = BrmlToV4Converter
_V4_INF_CREATOR_VERSION = 7.5.2.0
_V4_INF_WIZARD_PLUGIN_TYPE = TEXTURE
_V4_INF_TEXTURE_MEAS_GUID = 83aa8a6d-6486-4ad4-8325-fad7fa860a92
_V4_INF_TEXTURE_MEAS_ID = 1729179246

;content of C:\Users\USER\AppData\Local\Temp\92fetmp-1501843503.raw - (Diffrac Plus V4 file)
_FILEVERSION = 3
_SAMPLE
_+SAMPLE
_USER = Lab Manager
_GONIOMETER_CODE = 20
_STAGE_CODE = 4
; Goniometer : D8 theta/2theta, stage : Open eulerian craddle
_SAMPLE_CHANGER_CODE = 0
_ATTACHMENTS_CODE = 0
_GONIOMETER_RADIUS = 370
_MONOCHROMATOR = 0
; Incident beam monochromator : None
_BETA_FILTER = N
_FIXED_ANTISLIT = 18
_ANALYZER_CODE = 0
; Received beam analyzer : None
_DATEMEASURED = 10-Oct-2024 09:13:58
_RUNTIME = 19492.83
_WL_UNIT = A
_WL1 = 2.2897
_WL2 = 2.29361
_WL3 = 2.08487
_WLRATIO = 0.5
_ANODE = Cr
_V4_INF_USER = Lab Manager
_V4_INF_CREATOR = BrmlToV4Converter
_V4_INF_CREATOR_VERSION = 7.5.2.0
_V4_INF_WIZARD_PLUGIN_TYPE = TEXTURE
_V4_INF_TEXTURE_MEAS_GUID = 83aa8a6d-6486-4ad4-8325-fad7fa860a92
_V4_INF_TEXTURE_MEAS_ID = 1729179246

; Data for range 1
_DRIVE = COUPLED
_STEPTIME = 3
_STEPSIZE = 5
_STEPMODE = C
_START = 0
_THETA = 24.15
_2THETA = 48.3
_KHI = 0
_PHI = 0
_X = 10.5
_Y = -26
_Z = 0.5
_DETECTORSLIT = out
_TIMESTARTED = 0
_KV = 30
_MA = 40
_RANGE_WL = 2.2897
_3DPLANE = 0
_V4_PSD2THETA = 9999
_V4_PSDCHANNEL1 = 0
_V4_PSDAPERTURE = 6.075
_V4_PSDTYPE = 5
_V4_PSDFIXED = 0
_V4_COUNTERS_MASK = 1
_V4_DRIVES_MASK = 0
_V4_ENCODERS_MASK = 0
_2THETACOUNTS = 1
; 2THETA	Cnt2_D1
0.000000	20880.8
5.000000	21051.52
10	20904.28
15	20703.04
20	20817.8
25	20934.56
30	20756.32
35	20691.08
40	20478.84
45	20353.6
50	19796.36
55	19459.12
60	19197.88
65	18783.64
70	18366.4
75	18117.16
80	17977.92
85	17678.68
90	17469.44
95	17572.2
100	17537.96
105	17573.72
110	17919.48
115	18027.2
120	18419.0
125	18839.8
130	19642.52
135	19844.28
140	20373.04
145	20411.8
150	20718.56
155	21027.32
160	21469.08
165	21694.84
170	21822.6
175	21963.36
180	22296.12
185	22616.88
190	22616.64
195	22202.4
200	22318.16
205	22790.92
210	22392.68
215	22566.44
220	22609.2
225	22752.96
230	22703.72
235	22100.48
240	21935.2
245	21523.0
250	21280.8
255	20717.52
260	20365.28
265	20127.04
270	19967.8
275	19892.56
280	19815.32
285	20123.08
290	19924.84
295	20417.6
300	20743.36
305	21024.12
310	21232.88
315	21434.64
320	21827.4
325	22094.16
330	22095.92
335	21883.68
340	21687.44
345	21320.2
350	21345.96
355	21583.72

; Data for range 4
_DRIVE = COUPLED
_STEPTIME = 3
_STEPSIZE = 5
_STEPMODE = C
_START = 0
_THETA = 24.15
_2THETA = 48.3
_KHI = 5
_PHI = 0
_X = 10.5
_Y = -26
_Z = 0.5
_DETECTORSLIT = out
_TIMESTARTED = 246.4798
_KV = 30
_MA = 40
_RANGE_WL = 2.2897
_3DPLANE = 0
_V4_PSD2THETA = 9999
_V4_PSDCHANNEL1 = 0
_V4_PSDAPERTURE = 6.075
_V4_PSDTYPE = 5
_V4_PSDFIXED = 0
_V4_COUNTERS_MASK = 1
_V4_DRIVES_MASK = 0
_V4_ENCODERS_MASK = 0
_2THETACOUNTS = 1
; 2THETA	Cnt2_D1
0.000000	16959.7
5.000000	16280.5
10	16392.2
15	15576
20	15121.7
25	14743.48
30	14245.2
35	13650
40	13489.7
45	12903.5
50	12469.2
55	12220.96
60	11893.7
65	11752.5
70	11348.2
75	11053.9
80	11001.7
85	11158.4
90	10764.2
95	10987.9
100	11088.68
105	11313.4
110	11542.2
115	11737.92
120	12190.7
125	12918.4
130	13560.16
135	13665.9
140	13682.7
145	13903.4
150	14091.1
155	14164.9
160	14337.64
165	14222.4
170	14345.1
175	14003.9
180	14176.6
185	14878.4
190	14700.1
195	14980.9
200	15599.6
205	16167.36
210	16896.1
215	17585.9
220	18245.6
225	18696.3
230	18227.1
235	18393.84
240	18091.6
245	17826.3
250	17584.08
255	17344.8
260	16925.6
265	16432.32
270	16277.1
275	16486.8
280	16041.6
285	16271.3
290	16583.1
295	16674.8
300	16888.5
305	16914.3
310	17077.04
315	17012.8
320	17294.5
325	17180.28
330	17590
335	17306.8
340	17440.52
345	17407.3
350	17390
355	17609.8

; Data for range 7
_DRIVE = COUPLED
_STEPTIME = 3
_STEPSIZE = 5
_STEPMODE = C
_START = 0
_THETA = 24.15
_2THETA = 48.3
_KHI = 10
_PHI = 0
_X = 10.5
_Y = -26
_Z = 0.5
_DETECTORSLIT = out
_TIMESTARTED = 488.1343
_KV = 30
_MA = 40
_RANGE_WL = 2.2897
_3DPLANE = 0
_V4_PSD2THETA = 9999
_V4_PSDCHANNEL1 = 0
_V4_PSDAPERTURE = 6.075
_V4_PSDTYPE = 5
_V4_PSDFIXED = 0
_V4_COUNTERS_MASK = 1
_V4_DRIVES_MASK = 0
_V4_ENCODERS_MASK = 0
_2THETACOUNTS = 1
; 2THETA	Cnt2_D1
0.000000	8110.16
5.000000	8069.32
10	7810.48
15	7404.64
20	7194.8
25	6984.96
30	6929.12
35	6577.28
40	6441.44
45	6412.6
50	6165.76
55	6063.92
60	6226.08
65	6099.24
70	6100.4
75	6046.56
80	6446.72
85	5902.88
90	6120.04
95	6091.2
100	6294.36
105	6192.52
110	6604.68
115	6827.84
120	6905.0
125	6730.16
130	7124.32
135	7304.48
140	7295.64
145	7280.8
150	7201.96
155	7178.12
160	7468.28
165	7320.44
170	7301.6
175	7291.76
180	7172.92
185	7418.08
190	7753.24
195	8000.4
200	8410.56
205	8635.72
210	9332.88
215	9809.04
220	10220.2
225	10313.36
230	10530.52
235	10391.68
240	9929.84
245	9955.0
250	9720.16
255	9209.32
260	9109.48
265	9032.64
270	8785.8
275	8914.96
280	8770.12
285	8554.28
290	8583.44
295	8674.6
300	8619.76
305	8498.92
310	8551.08
315	8529.24
320	8304.4
325	8594.56
330	8328.72
335	8499.88
340	8298.04
345	8279.2
350	8412.36
355	8284.52

; Data for range 10
_DRIVE = COUPLED
_STEPTIME = 3
_STEPSIZE = 5
_STEPMODE = C
_START = 0
_THETA = 24.15
_2THETA = 48.3
_KHI = 15
_PHI = 0
_X = 10.5
_Y = -26
_Z = 0.5
_DETECTORSLIT = out
_TIMESTARTED = 729.9398
_KV = 30
_MA = 40
_RANGE_WL = 2.2897
_3DPLANE = 0
_V4_PSD2THETA = 9999
_V4_PSDCHANNEL1 = 0
_V4_PSDAPERTURE = 6.075
_V4_PSDTYPE = 5
_V4_PSDFIXED = 0
_V4_COUNTERS_MASK = 1
_V4_DRIVES_MASK = 0
_V4_ENCODERS_MASK = 0
_2THETACOUNTS = 1
; 2THETA	Cnt2_D1
0.000000	4106.11
5.000000	4040.21
10	3859.32
15	4027.43
20	3844.53
25	3895.64
30	3792.75
35	3803.85
40	3690.96
45	3908.07
50	3752.17
55	3932.28
60	3787.39
65	3555.49
70	3881.6
75	3674.71
80	3814.81
85	3766.92
90	3745.03
95	3807.13
100	3902.24
105	3830.35
110	3904.45
115	3951.56
120	3776.67
125	3814.77
130	4060.88
135	3881.99
140	3784.09
145	3681.2
150	3789.31
155	3747.41
160	3990.52
165	4010.63
170	3906.73
175	4111.84
180	4128.95
185	4097.05
190	3633.16
195	3708.27
200	3615.37
205	3934.48
210	4207.59
215	4486.69
220	4812.8
225	4741.91
230	5029.01
235	5036.12
240	4855.23
245	4905.33
250	4874.44
255	4848.55
260	4842.65
265	4606.76
270	4505.87
275	4439.97
280	4400.08
285	4583.19
290	4600.29
295	4698.4
300	4243.51
305	4271.61
310	4232.72
315	4351.83
320	4194.93
325	4257.04
330	4078.15
335	4213.25
340	3994.36
345	4324.47
350	4151.57
355	4276.68

; Data for range 13
_DRIVE = COUPLED
_STEPTIME = 3
_STEPSIZE = 5
_STEPMODE = C
_START = 0
_THETA = 24.15
_2THETA = 48.3
_KHI = 20
_PHI = 0
_X = 10.5
_Y = -26
_Z = 0.5
_DETECTORSLIT = out
_TIMESTARTED = 971.6857
_KV = 30
_MA = 40
_RANGE_WL = 2.2897
_3DPLANE = 0
_V4_PSD2THETA = 9999
_V4_PSDCHANNEL1 = 0
_V4_PSDAPERTURE = 6.075
_V4_PSDTYPE = 5
[...]
_STEPSIZE = 5
_STEPMODE = C
_START = 0
_THETA = 45.11
_2THETA = 90.22
_KHI = 65
_PHI = 0
_X = 10.5
_Y = -26
_Z = 0.5
_DETECTORSLIT = out
_TIMESTARTED = 18765.37
_KV = 30
_MA = 40
_RANGE_WL = 2.2897
_3DPLANE = 0
_V4_PSD2THETA = 9999
_V4_PSDCHANNEL1 = 0
_V4_PSDAPERTURE = 6.075
_V4_PSDTYPE = 5
_V4_PSDFIXED = 0
_V4_COUNTERS_MASK = 1
_V4_DRIVES_MASK = 0
_V4_ENCODERS_MASK = 0
_2THETACOUNTS = 1
; 2THETA	Cnt2_D1
0.000000	226.92
5.000000	342.84
10	412.76
15	282.68
20	300.6
25	371.52
30	389.44
35	285.36
40	234.28
45	119.2
50	161.12
55	197.04
60	160.96
65	101.88
70	173.8
75	231.72
80	126.64
85	302.56
90	397.48
95	340.4
100	444.32
105	475.24
110	507.16
115	793.08
120	856.0
125	985.92
130	923.84
135	928.76
140	932.68
145	950.6
150	803.52
155	752.44
160	806.36
165	543.28
170	347.2
175	320.12
180	322.04
185	355.96
190	234.88
195	254.8
200	279.72
205	399.64
210	267.56
215	373.48
220	310.4
225	97.32
230	158.24
235	173.16
240	134.08
245	171.0
250	16.92
255	321.84
260	254.76
265	378.68
270	200.6
275	468.52
280	242.44
285	187.36
290	170.28
295	248.2
300	174.12
305	315.04
310	0
315	55.88
320	0
325	69.72
330	0
335	70.56
340	31.48
345	18.4
350	231.32
355	249.24

; Data for range 235
_DRIVE = COUPLED
_STEPTIME = 3
_STEPSIZE = 5
_STEPMODE = C
_START = 0
_THETA = 45.11
_2THETA = 90.22
_KHI = 70
_PHI = 0
_X = 10.5
_Y = -26
_Z = 0.5
_DETECTORSLIT = out
_TIMESTARTED = 19007.92
_KV = 30
_MA = 40
_RANGE_WL = 2.2897
_3DPLANE = 0
_V4_PSD2THETA = 9999
_V4_PSDCHANNEL1 = 0
_V4_PSDAPERTURE = 6.075
_V4_PSDTYPE = 5
_V4_PSDFIXED = 0
_V4_COUNTERS_MASK = 1
_V4_DRIVES_MASK = 0
_V4_ENCODERS_MASK = 0
_2THETACOUNTS = 1
; 2THETA	Cnt2_D1
0.000000	250.147
5.000000	223.293
10	369.44
15	258.587
20	268.733
25	185.88
30	216.027
35	37.1733
40	34.32
45	0
50	65.6133
55	0
60	0
65	16.0533
70	0
75	30.3467
80	82.4933
85	206.64
90	102.787
95	158.933
100	98.08
105	385.227
110	479.373
115	569.52
120	734.667
125	901.813
130	734.96
135	696.107
140	888.253
145	737.4
150	830.547
155	547.693
160	470.84
165	360.987
170	346.133
175	112.28
180	316.427
185	322.573
190	258.72
195	380.867
200	296.013
205	283.16
210	332.307
215	367.453
220	189.6
225	308.747
230	159.893
235	144.04
240	299.187
245	225.333
250	230.48
255	135.627
260	298.773
265	318.92
270	398.067
275	250.213
280	320.36
285	311.507
290	231.653
295	149.8
300	137.947
305	125.093
310	156.24
315	135.387
320	53.5333
325	0
330	0
335	37.9733
340	0
345	70.2667
350	55.4133
355	0

; Data for range 238
_DRIVE = COUPLED
_STEPTIME = 3
_STEPSIZE = 5
_STEPMODE = C
_START = 0
_THETA = 45.11
_2THETA = 90.22
_KHI = 75
_PHI = 0
_X = 10.5
_Y = -26
_Z = 0.5
_DETECTORSLIT = out
_TIMESTARTED = 19250.55
_KV = 30
_MA = 40
_RANGE_WL = 2.2897
_3DPLANE = 0
_V4_PSD2THETA = 9999
_V4_PSDCHANNEL1 = 0
_V4_PSDAPERTURE = 6.075
_V4_PSDTYPE = 5
_V4_PSDFIXED = 0
_V4_COUNTERS_MASK = 1
_V4_DRIVES_MASK = 0
_V4_ENCODERS_MASK = 0
_2THETACOUNTS = 1
; 2THETA	Cnt2_D1
0.000000	178.533
5.000000	251.067
10	234.6
15	462.133
20	288.667
25	298.2
30	216.733
35	102.267
40	39.8
45	224.333
50	95.8667
55	87.4
60	18.9333
65	56.4667
70	47.0
75	99.5333
80	87.0667
85	75.6
90	225.133
95	349.667
100	132.2
105	396.733
110	641.267
115	649.8
120	830.333
125	794.867
130	799.4
135	822.933
140	905.467
145	909.0
150	810.533
155	799.067
160	558.6
165	480.133
170	406.667
175	380.2
180	532.733
185	553.267
190	520.8
195	379.333
200	510.867
205	376.4
210	240.933
215	536.467
220	396.0
225	277.533
230	286.067
235	252.6
240	137.133
245	72.6667
250	319.2
255	496.733
260	650.267
265	541.8
270	623.333
275	529.867
280	439.4
285	563.933
290	397.467
295	472.0
300	315.533
305	383.067
310	210.6
315	162.133
320	115.667
325	45.2
330	89.7333
335	52.2667
340	22.8
345	11.3333
350	0
355	71.4